File: HDPE_scan1.txt
Punto Numero:	Temperatura:	Heatflow:
1	  61.0	    0.099
2	  61.0	    0.103
3	  61.0	    0.103
4	  61.0	    0.105
5	  61.0	    0.108
6	  61.0	    0.119
7	  61.0	    0.132
8	  61.0	    0.150
9	  61.1	    0.167
10	  61.1	    0.187
11	  61.2	    0.204
12	  61.2	    0.220
13	  61.3	    0.234
14	  61.4	    0.247
15	  61.5	    0.254
16	  61.6	    0.259
17	  61.7	    0.261
18	  61.8	    0.259
19	  61.9	    0.254
20	  62.0	    0.247
21	  62.1	    0.234
22	  62.2	    0.220
23	  62.4	    0.203
24	  62.5	    0.184
25	  62.6	    0.162
26	  62.8	    0.136
27	  62.9	    0.110
28	  63.1	    0.082
29	  63.2	    0.051
30	  63.4	    0.021
31	  63.5	   -0.008
32	  63.7	   -0.037
33	  63.8	   -0.070
34	  64.0	   -0.101
35	  64.1	   -0.132
36	  64.3	   -0.164
37	  64.4	   -0.195
38	  64.6	   -0.224
39	  64.7	   -0.254
40	  64.9	   -0.284
41	  65.0	   -0.309
42	  65.2	   -0.338
43	  65.3	   -0.363
44	  65.5	   -0.389
45	  65.6	   -0.412
46	  65.8	   -0.429
47	  66.0	   -0.457
48	  66.1	   -0.477
49	  66.3	   -0.499
50	  66.4	   -0.518
51	  66.6	   -0.537
52	  66.7	   -0.555
53	  66.9	   -0.572
54	  67.0	   -0.588
55	  67.2	   -0.604
56	  67.3	   -0.618
57	  67.5	   -0.631
58	  67.7	   -0.644
59	  67.8	   -0.656
60	  68.0	   -0.669
61	  68.1	   -0.679
62	  68.3	   -0.689
63	  68.4	   -0.700
64	  68.6	   -0.711
65	  68.7	   -0.719
66	  68.9	   -0.727
67	  69.1	   -0.734
68	  69.2	   -0.742
69	  69.4	   -0.750
70	  69.6	   -0.757
71	  69.7	   -0.763
72	  69.9	   -0.769
73	  70.0	   -0.776
74	  70.2	   -0.781
75	  70.3	   -0.786
76	  70.5	   -0.791
77	  70.7	   -0.795
78	  70.8	   -0.799
79	  71.0	   -0.804
80	  71.2	   -0.808
81	  71.3	   -0.812
82	  71.5	   -0.816
83	  71.6	   -0.818
84	  71.8	   -0.821
85	  71.9	   -0.825
86	  72.1	   -0.828
87	  72.3	   -0.830
88	  72.4	   -0.832
89	  72.6	   -0.833
90	  72.8	   -0.835
91	  72.9	   -0.836
92	  73.1	   -0.836
93	  73.2	   -0.838
94	  73.4	   -0.839
95	  73.6	   -0.842
96	  73.7	   -0.843
97	  73.9	   -0.845
98	  74.0	   -0.846
99	  74.2	   -0.847
100	  74.4	   -0.849
101	  74.5	   -0.849
102	  74.7	   -0.851
103	  74.9	   -0.853
104	  75.0	   -0.853
105	  75.2	   -0.856
106	  75.3	   -0.857
107	  75.5	   -0.859
108	  75.7	   -0.859
109	  75.8	   -0.860
110	  76.0	   -0.862
111	  76.1	   -0.862
112	  76.3	   -0.864
113	  76.4	   -0.865
114	  76.6	   -0.867
115	  76.8	   -0.866
116	  76.9	   -0.869
117	  77.1	   -0.869
118	  77.3	   -0.870
119	  77.4	   -0.872
120	  77.6	   -0.872
121	  77.8	   -0.873
122	  77.9	   -0.874
123	  78.1	   -0.875
124	  78.3	   -0.876
125	  78.4	   -0.878
126	  78.6	   -0.878
127	  78.7	   -0.880
128	  78.9	   -0.881
129	  79.1	   -0.883
130	  79.2	   -0.884
131	  79.4	   -0.884
132	  79.5	   -0.885
133	  79.7	   -0.885
134	  79.9	   -0.887
135	  80.0	   -0.887
136	  80.2	   -0.888
137	  80.3	   -0.889
138	  80.5	   -0.890
139	  80.7	   -0.890
140	  80.8	   -0.893
141	  81.0	   -0.893
142	  81.2	   -0.894
143	  81.3	   -0.895
144	  81.5	   -0.896
145	  81.7	   -0.897
146	  81.8	   -0.898
147	  82.0	   -0.899
148	  82.1	   -0.900
149	  82.3	   -0.901
150	  82.5	   -0.903
151	  82.6	   -0.903
152	  82.8	   -0.904
153	  83.0	   -0.906
154	  83.1	   -0.908
155	  83.3	   -0.909
156	  83.4	   -0.911
157	  83.6	   -0.912
158	  83.8	   -0.913
159	  83.9	   -0.915
160	  84.1	   -0.917
161	  84.3	   -0.918
162	  84.4	   -0.920
163	  84.6	   -0.922
164	  84.8	   -0.923
165	  84.9	   -0.924
166	  85.1	   -0.926
167	  85.2	   -0.927
168	  85.4	   -0.928
169	  85.6	   -0.930
170	  85.7	   -0.931
171	  85.9	   -0.932
172	  86.0	   -0.933
173	  86.2	   -0.935
174	  86.4	   -0.936
175	  86.5	   -0.937
176	  86.7	   -0.937
177	  86.9	   -0.938
178	  87.0	   -0.939
179	  87.2	   -0.940
180	  87.4	   -0.940
181	  87.5	   -0.943
182	  87.7	   -0.944
183	  87.9	   -0.947
184	  88.0	   -0.948
185	  88.2	   -0.949
186	  88.3	   -0.952
187	  88.5	   -0.954
188	  88.7	   -0.955
189	  88.8	   -0.956
190	  89.0	   -0.959
191	  89.1	   -0.961
192	  89.3	   -0.962
193	  89.5	   -0.964
194	  89.7	   -0.966
195	  89.8	   -0.968
196	  90.0	   -0.970
197	  90.1	   -0.972
198	  90.3	   -0.974
199	  90.5	   -0.976
200	  90.6	   -0.977
201	  90.8	   -0.979
202	  91.0	   -0.981
203	  91.1	   -0.982
204	  91.3	   -0.984
205	  91.5	   -0.986
206	  91.6	   -0.987
207	  91.8	   -0.988
208	  92.0	   -0.990
209	  92.1	   -0.992
210	  92.3	   -0.992
211	  92.4	   -0.994
212	  92.6	   -0.995
213	  92.8	   -0.996
214	  93.0	   -0.998
215	  93.1	   -1.000
216	  93.3	   -1.001
217	  93.4	   -1.002
218	  93.6	   -1.004
219	  93.8	   -1.005
220	  93.9	   -1.007
221	  94.1	   -1.010
222	  94.3	   -1.013
223	  94.4	   -1.014
224	  94.6	   -1.015
225	  94.7	   -1.019
226	  94.9	   -1.020
227	  95.1	   -1.021
228	  95.2	   -1.023
229	  95.4	   -1.026
230	  95.6	   -1.027
231	  95.7	   -1.029
232	  95.9	   -1.032
233	  96.1	   -1.035
234	  96.2	   -1.038
235	  96.4	   -1.040
236	  96.6	   -1.043
237	  96.7	   -1.045
238	  96.9	   -1.046
239	  97.1	   -1.049
240	  97.2	   -1.052
241	  97.4	   -1.053
242	  97.5	   -1.055
243	  97.7	   -1.057
244	  97.9	   -1.058
245	  98.0	   -1.060
246	  98.2	   -1.063
247	  98.3	   -1.066
248	  98.5	   -1.068
249	  98.6	   -1.070
250	  98.8	   -1.072
251	  99.0	   -1.073
252	  99.2	   -1.076
253	  99.3	   -1.079
254	  99.5	   -1.080
255	  99.6	   -1.082
256	  99.8	   -1.085
257	 100.0	   -1.087
258	 100.1	   -1.089
259	 100.3	   -1.091
260	 100.5	   -1.094
261	 100.6	   -1.096
262	 100.8	   -1.098
263	 101.0	   -1.101
264	 101.1	   -1.104
265	 101.3	   -1.107
266	 101.5	   -1.110
267	 101.7	   -1.112
268	 101.8	   -1.116
269	 102.0	   -1.120
270	 102.1	   -1.123
271	 102.3	   -1.126
272	 102.5	   -1.130
273	 102.6	   -1.133
274	 102.8	   -1.135
275	 103.0	   -1.140
276	 103.1	   -1.144
277	 103.3	   -1.146
278	 103.4	   -1.148
279	 103.6	   -1.150
280	 103.8	   -1.155
281	 104.0	   -1.159
282	 104.1	   -1.162
283	 104.3	   -1.165
284	 104.4	   -1.169
285	 104.6	   -1.172
286	 104.8	   -1.176
287	 104.9	   -1.180
288	 105.1	   -1.183
289	 105.3	   -1.187
290	 105.4	   -1.191
291	 105.6	   -1.195
292	 105.8	   -1.198
293	 105.9	   -1.202
294	 106.1	   -1.206
295	 106.2	   -1.210
296	 106.4	   -1.214
297	 106.6	   -1.219
298	 106.7	   -1.224
299	 106.9	   -1.228
300	 107.1	   -1.232
301	 107.2	   -1.238
302	 107.4	   -1.242
303	 107.6	   -1.248
304	 107.7	   -1.252
305	 107.9	   -1.253
306	 108.1	   -1.253
307	 108.2	   -1.258
308	 108.4	   -1.269
309	 108.6	   -1.276
310	 108.7	   -1.281
311	 108.9	   -1.286
312	 109.0	   -1.292
313	 109.2	   -1.297
314	 109.4	   -1.303
315	 109.6	   -1.307
316	 109.7	   -1.314
317	 109.9	   -1.318
318	 110.0	   -1.323
319	 110.2	   -1.330
320	 110.4	   -1.336
321	 110.5	   -1.342
322	 110.7	   -1.348
323	 110.8	   -1.354
324	 111.0	   -1.358
325	 111.2	   -1.366
326	 111.4	   -1.372
327	 111.5	   -1.381
328	 111.7	   -1.388
329	 111.8	   -1.395
330	 112.0	   -1.403
331	 112.2	   -1.410
332	 112.3	   -1.418
333	 112.5	   -1.426
334	 112.7	   -1.434
335	 112.8	   -1.442
336	 113.0	   -1.450
337	 113.2	   -1.459
338	 113.3	   -1.466
339	 113.5	   -1.474
340	 113.6	   -1.484
341	 113.8	   -1.493
342	 114.0	   -1.504
343	 114.1	   -1.514
344	 114.3	   -1.525
345	 114.5	   -1.536
346	 114.7	   -1.547
347	 114.8	   -1.558
348	 115.0	   -1.568
349	 115.1	   -1.580
350	 115.3	   -1.594
351	 115.5	   -1.607
352	 115.6	   -1.620
353	 115.8	   -1.633
354	 116.0	   -1.648
355	 116.1	   -1.661
356	 116.3	   -1.672
357	 116.5	   -1.687
358	 116.6	   -1.702
359	 116.8	   -1.717
360	 116.9	   -1.732
361	 117.1	   -1.747
362	 117.3	   -1.763
363	 117.4	   -1.777
364	 117.6	   -1.794
365	 117.7	   -1.811
366	 117.9	   -1.829
367	 118.1	   -1.845
368	 118.2	   -1.864
369	 118.4	   -1.882
370	 118.6	   -1.901
371	 118.7	   -1.921
372	 118.9	   -1.940
373	 119.0	   -1.962
374	 119.2	   -1.982
375	 119.4	   -2.004
376	 119.5	   -2.027
377	 119.7	   -2.049
378	 119.9	   -2.072
379	 120.0	   -2.089
380	 120.2	   -2.118
381	 120.4	   -2.145
382	 120.5	   -2.173
383	 120.7	   -2.199
384	 120.8	   -2.229
385	 121.0	   -2.260
386	 121.1	   -2.291
387	 121.3	   -2.322
388	 121.5	   -2.354
389	 121.6	   -2.387
390	 121.8	   -2.422
391	 122.0	   -2.458
392	 122.1	   -2.494
393	 122.3	   -2.529
394	 122.4	   -2.567
395	 122.6	   -2.605
396	 122.7	   -2.645
397	 123.0	   -2.687
398	 123.1	   -2.729
399	 123.2	   -2.774
400	 123.4	   -2.819
401	 123.5	   -2.867
402	 123.7	   -2.913
403	 123.8	   -2.961
404	 124.0	   -3.011
405	 124.2	   -3.064
406	 124.3	   -3.116
407	 124.5	   -3.171
408	 124.7	   -3.228
409	 124.8	   -3.284
410	 125.0	   -3.340
411	 125.1	   -3.397
412	 125.3	   -3.459
413	 125.4	   -3.523
414	 125.6	   -3.586
415	 125.7	   -3.654
416	 125.9	   -3.724
417	 126.0	   -3.795
418	 126.2	   -3.872
419	 126.4	   -3.952
420	 126.5	   -4.033
421	 126.7	   -4.118
422	 126.8	   -4.207
423	 127.0	   -4.300
424	 127.1	   -4.396
425	 127.3	   -4.496
426	 127.4	   -4.601
427	 127.6	   -4.714
428	 127.7	   -4.830
429	 127.9	   -4.950
430	 128.0	   -5.069
431	 128.2	   -5.197
432	 128.3	   -5.324
433	 128.5	   -5.451
434	 128.6	   -5.580
435	 128.7	   -5.708
436	 128.9	   -5.843
437	 129.0	   -5.975
438	 129.2	   -6.112
439	 129.3	   -6.246
440	 129.5	   -6.388
441	 129.6	   -6.537
442	 129.8	   -6.679
443	 129.9	   -6.821
444	 130.1	   -6.965
445	 130.2	   -7.105
446	 130.3	   -7.245
447	 130.5	   -7.375
448	 130.6	   -7.512
449	 130.8	   -7.638
450	 130.9	   -7.756
451	 131.1	   -7.865
452	 131.2	   -7.967
453	 131.4	   -8.060
454	 131.5	   -8.140
455	 131.7	   -8.204
456	 131.9	   -8.254
457	 132.0	   -8.288
458	 132.2	   -8.304
459	 132.3	   -8.304
460	 132.5	   -8.285
461	 132.7	   -8.249
462	 132.9	   -8.194
463	 133.0	   -8.122
464	 133.2	   -8.027
465	 133.4	   -7.913
466	 133.6	   -7.779
467	 133.8	   -7.621
468	 134.0	   -7.438
469	 134.2	   -7.230
470	 134.4	   -6.991
471	 134.6	   -6.730
472	 134.8	   -6.451
473	 135.0	   -6.166
474	 135.2	   -5.873
475	 135.4	   -5.580
476	 135.6	   -5.289
477	 135.9	   -5.013
478	 136.1	   -4.748
479	 136.3	   -4.492
480	 136.4	   -4.247
481	 136.7	   -4.012
482	 136.9	   -3.789
483	 137.1	   -3.584
484	 137.2	   -3.392
485	 137.4	   -3.212
486	 137.6	   -3.042
487	 137.8	   -2.884
488	 138.0	   -2.738
489	 138.2	   -2.599
490	 138.4	   -2.471
491	 138.5	   -2.352
492	 138.7	   -2.244
493	 138.9	   -2.141
494	 139.1	   -2.047
495	 139.3	   -1.953
496	 139.4	   -1.868
497	 139.7	   -1.790
498	 139.8	   -1.715
499	 140.0	   -1.649
500	 140.2	   -1.587
501	 140.3	   -1.531
502	 140.5	   -1.476
503	 140.7	   -1.426
504	 140.9	   -1.378
505	 141.0	   -1.337
506	 141.2	   -1.296
507	 141.4	   -1.254
508	 141.6	   -1.223
509	 141.7	   -1.190
510	 141.9	   -1.159
511	 142.0	   -1.132
512	 142.2	   -1.104
513	 142.4	   -1.078
514	 142.6	   -1.057
515	 142.7	   -1.036
516	 142.9	   -1.016
517	 143.1	   -0.998
518	 143.2	   -0.981
519	 143.4	   -0.965
520	 143.6	   -0.949
521	 143.7	   -0.937
522	 143.9	   -0.924
523	 144.1	   -0.911
524	 144.2	   -0.900
525	 144.4	   -0.889
526	 144.6	   -0.880
527	 144.7	   -0.871
528	 144.9	   -0.861
529	 145.1	   -0.854
530	 145.3	   -0.846
531	 145.4	   -0.839
532	 145.6	   -0.835
533	 145.8	   -0.831
534	 145.9	   -0.825
535	 146.1	   -0.820
536	 146.3	   -0.815
537	 146.4	   -0.811
538	 146.6	   -0.806
539	 146.7	   -0.802
540	 146.9	   -0.797
541	 147.1	   -0.793
542	 147.3	   -0.790
543	 147.4	   -0.787
544	 147.6	   -0.783
545	 147.8	   -0.781
546	 147.9	   -0.778
547	 148.1	   -0.775
548	 148.3	   -0.773
549	 148.4	   -0.771
550	 148.6	   -0.769
551	 148.8	   -0.767
552	 148.9	   -0.765
553	 149.1	   -0.764
554	 149.3	   -0.761
555	 149.4	   -0.760
556	 149.6	   -0.759
557	 149.7	   -0.756
558	 149.9	   -0.755
559	 150.1	   -0.755
560	 150.3	   -0.754
561	 150.4	   -0.753
562	 150.6	   -0.752
563	 150.8	   -0.752
564	 150.9	   -0.751
565	 151.1	   -0.751
566	 151.3	   -0.750
567	 151.4	   -0.749
568	 151.6	   -0.749
569	 151.8	   -0.749
570	 151.9	   -0.748
571	 152.1	   -0.746
572	 152.2	   -0.744
573	 152.4	   -0.743
574	 152.6	   -0.743
575	 152.7	   -0.741
576	 152.9	   -0.741
577	 153.1	   -0.740
578	 153.2	   -0.740
579	 153.4	   -0.740
580	 153.6	   -0.738
581	 153.7	   -0.738
582	 153.9	   -0.739
583	 154.1	   -0.738
584	 154.2	   -0.738
585	 154.4	   -0.739
586	 154.6	   -0.739
587	 154.7	   -0.738
588	 154.9	   -0.736
589	 155.1	   -0.733
590	 155.2	   -0.734
591	 155.4	   -0.735
592	 155.6	   -0.733
593	 155.7	   -0.733
594	 155.9	   -0.733
595	 156.1	   -0.732
596	 156.2	   -0.731
597	 156.4	   -0.731
598	 156.5	   -0.731
599	 156.7	   -0.731
600	 156.9	   -0.731
601	 157.0	   -0.730
602	 157.2	   -0.730
603	 157.4	   -0.729
604	 157.5	   -0.729
605	 157.7	   -0.728
606	 157.9	   -0.727
607	 158.1	   -0.726
608	 158.2	   -0.724
609	 158.4	   -0.724
610	 158.6	   -0.724
611	 158.7	   -0.724
612	 158.9	   -0.724
613	 159.0	   -0.723
614	 159.2	   -0.724
615	 159.4	   -0.724
616	 159.5	   -0.723
617	 159.7	   -0.724